STUDYID,DOMAIN,USUBJID,SUBJID,RFSTDTC,RFENDTC,SITEID,AGE,AGEU,SEX,RACE,ETHNIC,ARMCD,ARM,ACTARMCD,ACTARM,COUNTRY,DMDTC,DMDY
STUDY001,DM,STUDY001-001,001,2023-01-15,2023-06-15,001,25,YEARS,M,WHITE,NOT HISPANIC OR LATINO,TRT,Treatment,TRT,Treatment,USA,2023-01-10,-5
STUDY001,DM,STUDY001-002,002,2023-01-16,2023-06-16,001,32,YEARS,F,BLACK OR AFRICAN AMERICAN,NOT HISPANIC OR LATINO,PBO,Placebo,PBO,Placebo,USA,2023-01-11,-5
STUDY001,DM,STUDY001-003,003,2023-01-17,2023-06-17,002,45,YEARS,M,ASIAN,NOT HISPANIC OR LATINO,TRT,Treatment,TRT,Treatment,USA,2023-01-12,-5
STUDY001,DM,STUDY001-004,004,2023-01-18,2023-06-18,002,28,YEARS,F,WHITE,HISPANIC OR LATINO,PBO,Placebo,PBO,Placebo,USA,2023-01-13,-5
STUDY001,DM,STUDY001-005,005,2023-01-19,2023-06-19,003,38,YEARS,M,WHITE,NOT HISPANIC OR LATINO,TRT,Treatment,TRT,Treatment,USA,2023-01-14,-5