STUDYID,DOMAIN,USUBJID,VSSEQ,VSTESTCD,VSTEST,VSCAT,VSORRES,VSORRESU,VSSTRESN,VSSTRESU,VSSTAT,VSLOC,VSBLFL,VISITNUM,VISIT,VSDTC,VSDY
STUDY001,VS,STUDY001-001,1,SYSBP,Systolic Blood Pressure,VITAL SIGNS,120,mmHg,120,mmHg,,ARM,Y,1,Baseline,2023-01-15,1
STUDY001,VS,STUDY001-001,2,DIABP,Diastolic Blood Pressure,VITAL SIGNS,80,mmHg,80,mmHg,,ARM,Y,1,Baseline,2023-01-15,1
STUDY001,VS,STUDY001-001,3,PULSE,Pulse Rate,VITAL SIGNS,72,beats/min,72,beats/min,,ARM,Y,1,Baseline,2023-01-15,1
STUDY001,VS,STUDY001-001,4,TEMP,Temperature,VITAL SIGNS,98.6,F,37.0,C,,ORAL,Y,1,Baseline,2023-01-15,1
STUDY001,VS,STUDY001-002,1,SYSBP,Systolic Blood Pressure,VITAL SIGNS,118,mmHg,118,mmHg,,ARM,Y,1,Baseline,2023-01-16,1
STUDY001,VS,STUDY001-002,2,DIABP,Diastolic Blood Pressure,VITAL SIGNS,78,mmHg,78,mmHg,,ARM,Y,1,Baseline,2023-01-16,1
STUDY001,VS,STUDY001-002,3,PULSE,Pulse Rate,VITAL SIGNS,68,beats/min,68,beats/min,,ARM,Y,1,Baseline,2023-01-16,1
STUDY001,VS,STUDY001-002,4,TEMP,Temperature,VITAL SIGNS,98.4,F,36.9,C,,ORAL,Y,1,Baseline,2023-01-16,1