STUDYID,DOMAIN,USUBJID,AESEQ,AESPID,AETERM,AEDECOD,AEBODSYS,AESEV,AESER,AEREL,AEACN,AEOUT,AESTDTC,AEENDTC,AESTDY,AEENDY
STUDY001,AE,STUDY001-001,1,,Headache,Headache,NERVOUS SYSTEM DISORDERS,MILD,N,POSSIBLE,NONE,RECOVERED/RESOLVED,2023-02-10,2023-02-12,26,28
STUDY001,AE,STUDY001-001,2,,Nausea,Nausea,GASTROINTESTINAL DISORDERS,MODERATE,N,PROBABLE,NONE,RECOVERED/RESOLVED,2023-03-15,2023-03-17,59,61
STUDY001,AE,STUDY001-002,1,,Dizziness,Dizziness,NERVOUS SYSTEM DISORDERS,MILD,N,UNLIKELY,NONE,RECOVERED/RESOLVED,2023-02-20,2023-02-21,36,37
STUDY001,AE,STUDY001-003,1,,Fatigue,Fatigue,GENERAL DISORDERS AND ADMINISTRATION SITE CONDITIONS,MODERATE,N,POSSIBLE,NONE,ONGOING,2023-04-01,,76,
STUDY001,AE,STUDY001-004,1,,Rash,Rash,SKIN AND SUBCUTANEOUS TISSUE DISORDERS,MILD,N,UNLIKELY,NONE,RECOVERED/RESOLVED,2023-02-25,2023-02-28,39,42